Folder: ALIAS-Viscoelasticity/dataset_example/processed_data/ForceRelax_example/data/data_1_Measurements/GMM Fitting Results (part 2)

File: data_1_3_GMM Fit.csv
Index [#],Phase [#],Displacement [um],Time [s],Pos X [um],Pos Y [um],Pos Z [um],Piezo X [um],Piezo Y [um],Piezo Z [um],Force A [uN],Force B [uN],Gripper [V],Voltage A [V],Voltage B [V],Temperature [oC],Sample Displacement [um],Filtered time [uN},Filtered force [uN],SG Force [uN],Est Force 2nd derivative,Filtered displacement [um],Sel Time [s],Sel Force [N],Sel Modulus Uncorrected [Pa],Sel Modulus Corrected [Pa],Sel Modulus GMM Fit [Pa],Sel Time Normalised [s m-2],Sel Force Normalised []
2.0,2.0,0.00522,15454.5,-357.906,-922.164,-27141.281,0.00014,-0.00047,-0.02797,-0.0859,,0.0,-0.00146,-0.00454,22.87088,6.46483,15454.5,-0.0859,-0.0852171,0.000369154,-0.02797,0.0,0.000278879,128807,128807,130127,0.0,1.0
2.0,2.0,4.95589,15454.8,-357.9061,-922.164,-27141.284,-0.00011,0.00015,4.92299,0.3769,,0.0,-0.00149,-0.00454,22.87099,11.4155,15454.8,0.3769,0.378322,-2.50142e-05,4.92299,0.255,0.0002430188,112244,112244,112292,2.97727e+16,0.449466
2.0,2.0,11.54733,15455,-357.906,-922.164,-27141.286,0.0,0.0,11.51479,0.91607,,0.0,-0.00156,-0.00456,22.87107,18.00695,15455,0.91607,0.914285,-1.17925e-05,11.51479,0.51,0.000235781,108901,108901,108986,5.95453e+16,0.338352
2.0,2.0,18.0317,15455.3,-357.906,-922.164,-27141.29,-9e-05,-0.00036,17.99945,1.37869,,0.0,-0.00146,-0.00453,22.87092,24.49131,15455.3,1.37869,1.38177,-3.05236e-05,17.99945,0.765,0.000233441,107821,107821,107716,8.9318e+16,0.302433
2.0,2.0,24.46554,15455.5,-357.908,-922.164,-27141.291,7e-05,-0.00034,24.4336,1.85473,,0.0,-0.00145,-0.00455,22.87115,30.92515,15455.5,1.85473,1.84868,0.000474752,24.4336,1.02,0.000230988,106687,106687,106874,1.19091e+17,0.264764
2.0,2.0,30.85871,15455.8,-357.907,-922.163,-27141.292,9e-05,-0.00041,30.85285,42.37671,,0.0,-0.00149,-0.00454,22.87111,37.31833,15455.8,42.37671,42.4396,0.00172847,30.85285,1.275,0.000230118,106286,106286,106216,1.48863e+17,0.25141
2.0,2.0,37.24243,15456,-357.906,-922.164,-27141.294,0.00022,6e-05,37.28681,120.462,,0.0,-0.0015,-0.00457,22.87111,43.70204,15456,120.462,120.287,0.00348979,37.28681,1.53,0.000228755,105656,105656,105682,1.78636e+17,0.230477
2.0,2.0,43.60886,15456.3,-357.907,-922.164,-27141.296,0.00011,-0.00038,43.70783,205.279,,0.0,-0.00146,-0.00454,22.87124,50.06847,15456.3,205.279,205.513,0.00171642,43.70783,1.785,0.000227886,105255,105255,105241,2.08409e+17,0.217147
2.0,3.0,49.58298,15456.6,-357.906,-922.164,-27141.296,-7e-05,0.00021,49.72728,275.723,,0.0,-0.00149,-0.00449,22.87115,56.04259,,,,,,2.04,0.000227164,104921,104921,104870,2.38181e+17,0.20606
2.0,3.0,50.07142,15456.8,-357.906,-922.163,-27141.297,-0.00035,8e-05,50.1956,244.46,,0.0,-0.00146,-0.00445,22.87115,56.53103,,,,,,2.295,0.000226324,104533,104533,104554,2.67954e+17,0.193159
2.0,3.0,50.03106,15457.1,-357.907,-922.163,-27141.297,2e-05,7e-05,50.15159,238.789,,0.0,-0.00145,-0.00454,22.87139,56.49067,,,,,,2.55,0.000225847,104313,104313,104280,2.97727e+17,0.185834
2.0,3.0,50.01878,15457.3,-357.906,-922.164,-27141.298,-0.00023,0.00019,50.13766,236.219,,0.0,-0.00144,-0.00449,22.87111,56.47839,,,,,,2.805,0.000225082,103960,103960,104038,3.27499e+17,0.174101
2.0,3.0,50.01314,15457.6,-357.906,-922.164,-27141.298,5e-05,-0.00018,50.13067,234.13,,0.0,-0.00151,-0.00455,22.87134,56.47275,,,,,,3.06,0.000225083,103960,103960,103823,3.57272e+17,0.174109
2.0,3.0,50.01161,15457.8,-357.9079,-922.165,-27141.298,-0.00015,0.00045,50.12857,233.236,,0.0,-0.00149,-0.00454,22.8713,56.47123,,,,,,3.315,0.000224113,103512,103512,103628,3.87045e+17,0.159223
2.0,3.0,50.00908,15458.1,-357.906,-922.163,-27141.299,-0.00056,-0.00012,50.12504,231.675,,0.0,-0.00145,-0.00456,22.87142,56.4687,,,,,,3.57,0.000224194,103550,103550,103449,4.16817e+17,0.160464
2.0,3.0,50.00864,15458.3,-357.9069,-922.164,-27141.3,-0.00029,1e-05,50.12429,231.2,,0.0,-0.00143,-0.00453,22.87142,56.46825,,,,,,3.825,0.000223513,103235,103235,103284,4.4659e+17,0.150001
2.0,3.0,50.00697,15458.6,-357.907,-922.163,-27141.299,-0.0003,-0.00024,50.12179,229.914,,0.0,-0.00147,-0.00454,22.87144,56.46658,,,,,,4.08,0.00022343,103197,103197,103129,4.76363e+17,0.148733
2.0,3.0,50.00721,15458.9,-357.9069,-922.164,-27141.3,-0.00036,0.00062,50.12194,229.765,,0.0,-0.00146,-0.00452,22.87147,56.46682,,,,,,4.335,0.000222997,102997,102997,102984,5.06135e+17,0.142092
2.0,3.0,50.00666,15459.1,-357.905,-922.164,-27141.3,-0.00048,0.00018,50.12083,228.912,,0.0,-0.00149,-0.00457,22.87155,56.46627,,,,,,4.59,0.000222508,102771,102771,102847,5.35908e+17,0.134574
2.0,3.0,50.00579,15459.4,-357.905,-922.164,-27141.301,-6e-05,9e-05,50.11969,228.482,,0.0,-0.00146,-0.00454,22.87154,56.4654,,,,,,4.845,0.000222514,102774,102774,102716,5.6568e+17,0.134677
2.0,3.0,50.00599,15459.6,-357.905,-922.165,-27141.3,-0.00011,0.00028,50.11964,228.09,,0.0,-0.00149,-0.00453,22.87157,56.46561,,,,,,5.1,0.000221893,102487,102487,102591,5.95453e+17,0.12513
2.0,3.0,50.00483,15459.9,-357.907,-922.164,-27141.3,0.00021,-4e-05,50.11798,227.324,,0.0,-0.00143,-0.00449,22.87163,56.46444,,,,,,5.355,0.000222068,102568,102568,102472,6.25226e+17,0.127828
2.0,3.0,50.00556,15460.1,-357.906,-922.164,-27141.3,-0.00025,0.00038,50.11877,227.403,,0.0,-0.00145,-0.00448,22.87154,56.46517,,,,,,5.61,0.000221366,102243,102243,102357,6.54998e+17,0.117049
2.0,3.0,50.00467,15460.4,-357.907,-922.163,-27141.3,-0.00029,0.0004,50.11736,226.604,,0.0,-0.00146,-0.0045,22.87168,56.46428,,,,,,5.865,0.000221642,102371,102371,102246,6.84771e+17,0.12129
2.0,3.0,50.00512,15460.6,-357.907,-922.163,-27141.302,-0.00061,0.00053,50.11789,226.717,,0.0,-0.00146,-0.00453,22.87159,56.46474,,,,,,6.12,0.000220923,102038,102038,102139,7.14544e+17,0.110238
2.0,3.0,50.00431,15460.9,-357.906,-922.163,-27141.3,-0.00027,0.0002,50.11657,225.931,,0.0,-0.00154,-0.00453,22.87167,56.46392,,,,,,6.375,0.000221056,102100,102100,102036,7.44316e+17,0.112285
2.0,3.0,50.00463,15461.1,-357.906,-922.163,-27141.303,-0.00013,-9e-05,50.11697,226.055,,0.0,-0.00149,-0.00452,22.87167,56.46424,,,,,,6.63,0.00022066,101917,101917,101937,7.74089e+17,0.106212
2.0,3.0,50.00438,15461.4,-357.906,-922.163,-27141.303,-0.00026,-0.00045,50.11638,225.535,,0.0,-0.00152,-0.00454,22.87178,56.46399,,,,,,6.885,0.000220473,101831,101831,101840,8.03862e+17,0.103337
2.0,3.0,50.004,15461.7,-357.907,-922.163,-27141.302,-0.00018,-4e-05,50.11586,225.32,,0.0,-0.00142,-0.0045,22.87182,56.46361,,,,,,7.14,0.000220316,101758,101758,101747,8.33634e+17,0.100927
2.0,3.0,50.0043,15461.9,-357.907,-922.163,-27141.3,0.00012,-0.0004,50.11604,225.121,,0.0,-0.00144,-0.00453,22.87174,56.46391,,,,,,7.395,0.000220005,101615,101615,101656,8.63407e+17,0.0961486
2.0,3.0,50.00352,15462.2,-357.907,-922.164,-27141.303,-0.00012,-7e-05,50.11493,224.611,,0.0,-0.0014,-0.00452,22.87187,56.46314,,,,,,7.65,0.000220101,101659,101659,101569,8.9318e+17,0.0976258
2.0,3.0,50.00438,15462.4,-357.9079,-922.163,-27141.3,4e-05,0.0002,50.11595,224.864,,0.0,-0.00143,-0.00448,22.87169,56.46399,,,,,,7.905,0.0002195,101382,101382,101484,9.22952e+17,0.0884019
2.0,3.0,50.00324,15462.7,-357.907,-922.164,-27141.301,-0.00058,7e-05,50.1143,224.068,,0.0,-0.00148,-0.00451,22.87197,56.46286,,,,,,8.16,0.00021984,101539,101539,101401,9.52725e+17,0.0936202
2.0,3.0,50.00433,15462.9,-357.905,-922.164,-27141.303,0.00032,2e-05,50.11564,224.456,,0.0,-0.00142,-0.00445,22.8721,56.46394,,,,,,8.415,0.00021919,101238,101238,101322,9.82498e+17,0.083635
2.0,3.0,50.00337,15463.2,-357.907,-922.164,-27141.303,-0.00025,-1e-05,50.11419,223.697,,0.0,-0.00156,-0.00455,22.87187,56.46298,,,,,,8.67,0.000219337,101306,101306,101244,1.01227e+18,0.0858996
2.0,3.0,50.00389,15463.4,-357.906,-922.163,-27141.303,6e-05,-0.00022,50.11485,223.909,,0.0,-0.00145,-0.00452,22.87211,56.4635,,,,,,8.925,0.000218966,101135,101135,101169,1.04204e+18,0.0802025
2.0,3.0,50.0033,15463.7,-357.907,-922.163,-27141.301,-0.00034,-0.00032,50.11385,223.282,,0.0,-0.00149,-0.00452,22.87203,56.46291,,,,,,9.18,0.000218827,101071,101071,101096,1.07182e+18,0.078073
2.0,3.0,50.00339,15464,-357.907,-922.164,-27141.301,0.00014,-0.00016,50.114,223.372,,0.0,-0.00148,-0.0045,22.87204,56.463,,,,,,9.435,0.0002187517,101036,101036,101026,1.10159e+18,0.076911
2.0,3.0,50.00358,15464.2,-357.906,-922.163,-27141.304,-3e-05,0.00027,50.11405,223.1578,,0.0,-0.00152,-0.00452,22.87204,56.46319,,,,,,,,,,,,
2.0,3.0,50.00297,15464.5,-357.907,-922.163,-27141.3,-2e-05,0.00034,50.11316,222.726,,0.0,-0.00156,-0.00452,22.87225,56.46258,,,,,,,,,,,,
2.0,3.0,50.00412,15464.7,-357.906,-922.165,-27141.304,-0.00032,-4e-05,50.11458,223.124,,0.0,-0.00148,-0.0045,22.87215,56.46374,,,,,,,,,,,,
2.0,3.0,50.0027,15465,-357.907,-922.164,-27141.3,-0.00039,-0.00035,50.11259,222.248,,0.0,-0.00153,-0.00446,22.87226,56.46231,,,,,,,,,,,,
2.0,3.0,50.00391,15465.2,-357.906,-922.163,-27141.304,-0.00014,-0.0001,50.11411,222.728,,0.0,-0.00148,-0.00447,22.87223,56.46352,,,,,,,,,,,,
2.0,3.0,50.00293,15465.5,-357.907,-922.164,-27141.3,6e-05,3e-05,50.11268,222.027,,0.0,-0.00157,-0.0045,22.87233,56.46254,,,,,,,,,,,,
2.0,3.0,50.00339,15465.7,-357.906,-922.164,-27141.303,-0.00034,-0.00016,50.11325,222.198,,0.0,-0.00143,-0.0045,22.87234,56.463,,,,,,,,,,,,
2.0,3.0,50.00316,15466,-357.907,-922.1639,-27141.303,-0.00014,0.00019,50.11276,221.7986,,0.0,-0.0015,-0.00447,22.87236,56.46277,,,,,,,,,,,,
2.0,3.0,50.00307,15466.2,-357.906,-922.164,-27141.302,-0.00019,0.00046,50.11259,221.688,,0.0,-0.00146,-0.00449,22.87245,56.46268,,,,,,,,,,,,
2.0,3.0,50.00358,15466.5,-357.906,-922.1622,-27141.3,-0.00023,0.00035,50.11319,221.812,,0.0,-0.00152,-0.00452,22.87248,56.46319,,,,,,,,,,,,
2.0,4.0,45.67441,15466.8,-357.905,-922.163,-27141.304,-8e-05,0.00023,45.68958,75.06721,,0.0,-0.00157,-0.00451,22.87238,52.13402,,,,,,,,,,,,
2.0,4.0,39.03588,15467,-357.9062,-922.163,-27141.304,0.00012,0.00059,39.02549,35.33213,,0.0,-0.00146,-0.00445,22.87241,45.4955,,,,,,,,,,,,
2.0,4.0,32.47361,15467.3,-357.905,-922.163,-27141.304,-6e-05,-0.00032,32.44914,13.45186,,0.0,-0.0015,-0.00446,22.87234,38.93323,,,,,,,,,,,,
2.0,4.0,25.97379,15467.5,-357.906,-922.164,-27141.304,0.00039,0.00013,25.94069,0.04272,,0.0,-0.00151,-0.00451,22.87227,32.4334,,,,,,,,,,,,
2.0,4.0,19.50338,15467.8,-357.907,-922.163,-27141.303,2e-05,0.00015,19.46984,-0.62936,,0.0,-0.00152,-0.0045,22.87238,25.96299,,,,,,,,,,,,
2.0,4.0,13.05517,15468,-357.905,-922.164,-27141.3,-1e-05,0.00027,13.02118,-1.32467,,0.0,-0.0015,-0.00449,22.87255,19.51478,,,,,,,,,,,,
2.0,4.0,6.62636,15468.3,-357.907,-922.164,-27141.304,-4e-05,0.00051,6.59194,-1.99731,,0.0,-0.00148,-0.0045,22.87247,13.08597,,,,,,,,,,,,
2.0,4.0,0.42191,15468.5,-357.907,-922.163,-27141.3,-0.00012,-0.0001,0.38708,-2.64131,,0.0,-0.00147,-0.00446,22.87255,6.88152,,,,,,,,,,,,
2.0,4.0,0.20956,15468.6,-357.905,-922.163,-27141.3,0.00034,0.00054,0.17471,-2.65756,,0.0,-0.0015,-0.00451,22.87252,6.66917,,,,,,,,,,,,

File: data_1_4_GMM Fit.csv
Index [#],Phase [#],Displacement [um],Time [s],Pos X [um],Pos Y [um],Pos Z [um],Piezo X [um],Piezo Y [um],Piezo Z [um],Force A [uN],Force B [uN],Gripper [V],Voltage A [V],Voltage B [V],Temperature [oC],Sample Displacement [um],Filtered time [uN},Filtered force [uN],SG Force [uN],Est Force 2nd derivative,Filtered displacement [um],Sel Time [s],Sel Force [N],Sel Modulus Uncorrected [Pa],Sel Modulus Corrected [Pa],Sel Modulus GMM Fit [Pa],Sel Time Normalised [s m-2],Sel Force Normalised []
3.0,2.0,0.00575,15476.216,-357.907,-422.161,-27143.5,-0.00038,-0.0004,-0.04336,-0.10242,,0.0,-0.00154,-0.00456,22.87321,5.07839,15476.216,-0.10242,-0.103484,0.000355774,-0.04336,0.0,0.000264598,122312,122312,123417,0.0,1.0
3.0,2.0,5.09501,15476.476,-357.907,-422.162,-27143.518,-4e-05,-2e-05,5.04619,0.34365,,0.0,-0.00153,-0.0046,22.87341,10.16765,15476.476,0.34365,0.336678,-2.93359e-05,5.04619,0.26,0.000230317,106465,106465,106543,3.03897e+16,0.422566
3.0,2.0,11.81271,15476.736,-357.907,-422.162,-27143.521,-0.0003,0.00021,11.76424,0.90953,,0.0,-0.00151,-0.00457,22.87338,16.88534,15476.736,0.90953,0.904425,-3.51517e-05,11.76424,0.52,0.000223695,103404,103404,103492,6.07793e+16,0.311033
3.0,2.0,18.42062,15476.996,-357.907,-422.162,-27143.523,-0.00028,-0.00019,18.37245,1.36022,,0.0,-0.00147,-0.00455,22.87333,23.49326,15476.996,1.36022,1.36149,-2.80275e-05,18.37245,0.78,0.000221297,102295,102295,102299,9.1169e+16,0.270632
3.0,2.0,24.97549,15477.256,-357.905,-422.161,-27143.5,-0.00039,-0.00059,24.92763,1.84326,,0.0,-0.00155,-0.00454,22.87334,30.04813,15477.256,1.84326,1.80726,0.0031601,24.92763,1.04,0.000219767,101588,101588,101498,1.21559e+17,0.244873
3.0,2.0,31.49347,15477.516,-357.906,-422.161,-27143.527,-0.00066,-6e-05,31.4743,46.43283,,0.0,-0.00155,-0.00455,22.87341,36.56611,15477.516,46.43283,46.5473,0.00859578,31.4743,1.3,0.000218125,100829,100829,100872,1.51948e+17,0.217205
3.0,2.0,38.00038,15477.776,-357.907,-422.161,-27143.529,0.0,-4e-05,38.03052,123.0461,,0.0,-0.00149,-0.00457,22.87354,43.07302,15477.776,123.0461,122.958,0.00332698,38.03052,1.56,0.000216851,100240,100240,100363,1.82338e+17,0.195753
3.0,2.0,44.4897,15478.036,-357.907,-422.162,-27143.529,0.0,-0.00017,44.5735,206.447,,0.0,-0.00149,-0.00454,22.87366,49.56233,15478.036,206.447,206.42,0.0025655,44.5735,1.82,0.000216352,100009,100009,99940.4,2.12728e+17,0.187343
3.0,3.0,49.87993,15478.296,-357.906,-422.161,-27143.53,-0.00025,-0.00037,49.99292,251.793,,0.0,-0.0015,-0.00455,22.87359,54.95257,,,,,,2.08,0.000215715,99715.2,99715.2,99583.6,2.43117e+17,0.176619
3.0,3.0,50.06129,15478.556,-357.906,-422.162,-27143.53,0.00017,7e-05,50.16066,230.6267,,0.0,-0.00148,-0.0045,22.87396,55.13393,,,,,,2.34,0.0002146262,99211.7,99211.7,99276.9,2.73507e+17,0.158275
3.0,3.0,50.02796,15478.816,-357.906,-422.161,-27143.5,0.00019,0.00046,50.12459,226.366,,0.0,-0.00152,-0.00452,22.8737,55.1006,,,,,,2.6,0.000213936,98892.6,98892.6,99009,3.03897e+17,0.146648
3.0,3.0,50.01739,15479.076,-357.906,-422.161,-27143.532,0.00072,-6e-05,50.11238,223.827,,0.0,-0.00149,-0.00457,22.87373,55.09003,,,,,,2.86,0.000213777,98819.3,98819.3,98771.4,3.34286e+17,0.143974
3.0,3.0,50.01267,15479.336,-357.906,-422.162,-27143.5,-0.00016,0.00033,50.1064,221.875,,0.0,-0.00149,-0.00458,22.87375,55.08531,,,,,,3.12,0.000213428,98657.7,98657.7,98557.9,3.64676e+17,0.138087
3.0,3.0,50.01091,15479.596,-357.905,-422.162,-27143.533,-6e-05,-4e-05,50.104,220.877,,0.0,-0.00151,-0.00453,22.87377,55.08354,,,,,,3.38,0.000213012,98465.5,98465.5,98363.8,3.95066e+17,0.131084
3.0,3.0,50.00969,15479.856,-357.906,-422.161,-27143.534,7e-05,0.00039,50.10229,220.105,,0.0,-0.00154,-0.00453,22.87359,55.08233,,,,,,3.64,0.000212168,98075.5,98075.5,98185.7,4.25455e+17,0.116874
3.0,3.0,50.00812,15480.116,-357.907,-422.161,-27143.534,-0.00015,0.00064,50.09998,218.961,,0.0,-0.00149,-0.00449,22.8739,55.08076,,,,,,3.9,0.000212302,98137.4,98137.4,98020.9,4.55845e+17,0.119128
3.0,3.0,50.00695,15480.376,-357.906,-422.161,-27143.534,-0.00037,0.00024,50.09819,218.003,,0.0,-0.0015,-0.00445,22.87378,55.07959,,,,,,4.16,0.000212082,98035.8,98035.8,97867.4,4.86235e+17,0.115426
3.0,3.0,50.00713,15480.636,-357.906,-422.161,-27143.535,-0.00017,0.00014,50.09819,217.715,,0.0,-0.00149,-0.00448,22.8739,55.07976,,,,,,4.42,0.000211208,97631.5,97631.5,97723.6,5.16624e+17,0.100695
3.0,3.0,50.00735,15480.896,-357.906,-422.161,-27143.534,-0.00014,0.00016,50.09825,217.466,,0.0,-0.0015,-0.00443,22.87389,55.07999,,,,,,4.68,0.000210809,97447.3,97447.3,97588.5,5.47014e+17,0.0939822
3.0,3.0,50.00587,15481.156,-357.906,-422.162,-27143.533,-0.00044,0.00046,50.09615,216.508,,0.0,-0.00151,-0.00446,22.87392,55.07851,,,,,,4.94,0.000210975,97523.8,97523.8,97460.9,5.77404e+17,0.0967683
3.0,3.0,50.00536,15481.416,-357.906,-422.161,-27143.5,-0.00027,2e-05,50.09526,215.912,,0.0,-0.00151,-0.00451,22.87396,55.07799,,,,,,5.2,0.000210783,97435,97435,97340.3,6.07793e+17,0.0935335
3.0,3.0,50.00567,15481.676,-357.906,-422.161,-27143.534,-0.00011,8e-05,50.09545,215.723,,0.0,-0.0015,-0.00451,22.87399,55.07831,,,,,,5.46,0.00021018,97156.6,97156.6,97225.9,6.38183e+17,0.0833891
3.0,3.0,50.00579,15481.936,-357.907,-422.161,-27143.535,0.00021,-5e-05,50.09546,215.563,,0.0,-0.00154,-0.00453,22.87402,55.07842,,,,,,5.72,0.000209819,96989.7,96989.7,97117.3,6.68573e+17,0.0773084
3.0,3.0,50.00436,15482.196,-357.906,-422.161,-27143.536,3e-05,0.00012,50.09356,214.829,,0.0,-0.00149,-0.00447,22.87403,55.077,,,,,,5.98,0.00021007,97105.6,97105.6,97014.1,6.98962e+17,0.081531
3.0,3.0,50.00421,15482.456,-357.906,-422.161,-27143.537,-0.00012,-0.00027,50.09305,214.276,,0.0,-0.0015,-0.00447,22.87402,55.07684,,,,,,6.24,0.000209965,97057.2,97057.2,96915.9,7.29352e+17,0.0797656
3.0,3.0,50.00462,15482.716,-357.906,-422.161,-27143.536,8e-05,0.00023,50.09343,214.232,,0.0,-0.00146,-0.0045,22.87416,55.07725,,,,,,6.5,0.000209345,96770.3,96770.3,96822.3,7.59742e+17,0.0693148
3.0,3.0,50.00492,15482.976,-357.907,-422.161,-27143.5,0.00018,0.0001,50.09375,214.247,,0.0,-0.0015,-0.00451,22.87414,55.07756,,,,,,6.76,0.000209025,96622.7,96622.7,96733.2,7.90131e+17,0.0639356
3.0,3.0,50.00429,15483.236,-357.907,-422.162,-27143.537,-9e-05,0.00022,50.0928,213.75,,0.0,-0.00145,-0.00448,22.87419,55.07693,,,,,,7.02,0.000209142,96676.6,96676.6,96648.2,8.20521e+17,0.0658974
3.0,3.0,50.00392,15483.496,-357.907,-422.161,-27143.5,-0.00042,-0.00038,50.09211,213.263,,0.0,-0.00144,-0.00452,22.87428,55.07656,,,,,,7.28,0.000209174,96691.4,96691.4,96567.2,8.50911e+17,0.0664362
3.0,3.0,50.00442,15483.756,-357.906,-422.162,-27143.5,-0.00018,-0.00045,50.09264,213.31,,0.0,-0.00148,-0.00452,22.87415,55.07706,,,,,,7.54,0.00020855,96403,96403,96490,8.813e+17,0.0559295
3.0,3.0,50.00463,15484.016,-357.907,-422.161,-27143.538,-8e-05,0.0003,50.09287,213.331,,0.0,-0.00153,-0.00453,22.8743,55.07727,,,,,,7.8,0.000208439,96351.8,96351.8,96416.2,9.1169e+17,0.0540649
3.0,3.0,50.00355,15484.276,-357.907,-422.161,-27143.538,-0.00043,-0.00033,50.09137,212.687,,0.0,-0.00154,-0.00455,22.87433,55.07618,,,,,,8.06,0.000208725,96484.1,96484.1,96345.9,9.42079e+17,0.0588837
3.0,3.0,50.00345,15484.536,-357.906,-422.162,-27143.537,-0.00029,-0.00037,50.09103,212.3003,,0.0,-0.00149,-0.00457,22.87429,55.07609,,,,,,8.32,0.000208476,96368.8,96368.8,96278.8,9.72469e+17,0.0546827
3.0,3.0,50.00399,15484.796,-357.905,-422.161,-27143.5,0.0004,0.00016,50.09165,212.428,,0.0,-0.00151,-0.00454,22.87425,55.07663,,,,,,8.58,0.000208007,96151.8,96151.8,96214.7,1.00286e+18,0.0467755
3.0,3.0,50.00417,15485.056,-357.906,-422.161,-27143.537,0.00072,0.00013,50.09183,212.442,,0.0,-0.00153,-0.00456,22.87428,55.0768,,,,,,8.84,0.000207851,96080,96080,96153.6,1.03325e+18,0.044159
3.0,3.0,50.00367,15485.316,-357.906,-422.162,-27143.538,0.00012,0.00032,50.09109,212.072,,0.0,-0.00145,-0.00453,22.87458,55.0763,,,,,,9.1,0.00020813,96208.7,96208.7,96095.2,1.06364e+18,0.0488507
3.0,3.0,50.0033,15485.576,-357.907,-422.161,-27143.538,0.00035,-0.00073,50.09047,211.67,,0.0,-0.00154,-0.00456,22.87431,55.07594,,,,,,9.36,0.000207663,95992.9,95992.9,96039.5,1.09403e+18,0.0409854
3.0,3.0,50.00422,15485.836,-357.906,-422.161,-27143.537,-0.0,-0.00017,50.09156,211.938,,0.0,-0.00145,-0.00458,22.87431,55.07685,,,,,,,,,,,,
3.0,3.0,50.00378,15486.096,-357.907,-422.161,-27143.538,0.00021,-7e-05,50.09102,211.777,,0.0,-0.00147,-0.00458,22.87442,55.07642,,,,,,,,,,,,
3.0,3.0,50.0033,15486.356,-357.907,-422.162,-27143.537,-0.00024,-0.00044,50.09022,211.272,,0.0,-0.00153,-0.00458,22.8744,55.07594,,,,,,,,,,,,
3.0,3.0,50.00344,15486.616,-357.906,-422.161,-27143.5,-0.00012,-0.00062,50.09024,211.094,,0.0,-0.00153,-0.00452,22.87448,55.07608,,,,,,,,,,,,
3.0,3.0,50.00374,15486.876,-357.907,-422.162,-27143.537,-0.0004,5e-05,50.09067,211.298,,0.0,-0.00143,-0.00456,22.87457,55.07638,,,,,,,,,,,,
3.0,3.0,50.0039,15487.136,-357.907,-422.161,-27143.538,0.00046,0.00013,50.09078,211.215,,0.0,-0.00143,-0.00457,22.87467,55.07654,,,,,,,,,,,,
3.0,3.0,50.00288,15487.396,-357.906,-422.161,-27143.538,-0.00017,-0.00042,50.08933,210.549,,0.0,-0.00147,-0.00458,22.87458,55.07552,,,,,,,,,,,,
3.0,3.0,50.00364,15487.656,-357.907,-422.162,-27143.537,-0.00043,4e-05,50.09019,210.719,,0.0,-0.00147,-0.00455,22.87445,55.07627,,,,,,,,,,,,
3.0,3.0,50.00402,15487.916,-357.906,-422.161,-27143.5,4e-05,0.00034,50.09066,210.852,,0.0,-0.00146,-0.00457,22.87471,55.07666,,,,,,,,,,,,
3.0,3.0,50.00341,15488.176,-357.906,-422.161,-27143.539,-0.00011,-5e-05,50.08981,210.482,,0.0,-0.00142,-0.00456,22.87472,55.07605,,,,,,,,,,,,
3.0,4.0,46.17118,15488.436,-357.906,-422.162,-27143.538,0.00024,5e-05,46.17244,78.18308,,0.0,-0.00148,-0.00451,22.87492,51.24381,,,,,,,,,,,,
3.0,4.0,39.41552,15488.696,-357.908,-422.161,-27143.539,-0.00026,0.00024,39.38909,35.14533,,0.0,-0.00147,-0.00457,22.87468,44.48816,,,,,,,,,,,,
3.0,4.0,32.72276,15488.956,-357.908,-422.161,-27143.539,-0.00042,2e-05,32.6827,13.96621,,0.0,-0.00153,-0.00451,22.8748,37.7954,,,,,,,,,,,,
3.0,4.0,26.0923,15489.216,-357.906,-422.161,-27143.538,0.00012,0.00065,26.04342,0.25637,,0.0,-0.00142,-0.00449,22.87476,31.16494,,,,,,,,,,,,
3.0,4.0,19.49539,15489.476,-357.906,-422.161,-27143.5,5e-05,-7e-05,19.44606,-0.4384,,0.0,-0.00145,-0.00452,22.87481,24.56803,,,,,,,,,,,,
3.0,4.0,12.92176,15489.736,-357.906,-422.162,-27143.5,-0.00015,0.0002,12.87198,-1.13429,,0.0,-0.00145,-0.00452,22.87487,17.99439,,,,,,,,,,,,
3.0,4.0,6.36816,15489.996,-357.907,-422.161,-27143.538,0.00021,0.00035,6.31795,-1.81321,,0.0,-0.0015,-0.00456,22.87498,11.4408,,,,,,,,,,,,
3.0,4.0,0.25306,15490.256,-357.907,-422.161,-27143.539,-0.00022,-0.00041,0.20243,-2.45604,,0.0,-0.00155,-0.00452,22.87495,5.3257,,,,,,,,,,,,
3.0,4.0,0.20907,15490.261,-357.907,-422.162,-27143.539,-0.00018,0.00054,0.15845,-2.45481,,0.0,-0.0015,-0.00453,22.87484,5.28171,,,,,,,,,,,,