Folder: ALIAS-Viscoelasticity/dataset_example/processed_data/ForceRelax_example/data/data_1_Measurements/GMM Fitting Results (part 3)

File: data_1_5_GMM Fit.csv
Index [#],Phase [#],Displacement [um],Time [s],Pos X [um],Pos Y [um],Pos Z [um],Piezo X [um],Piezo Y [um],Piezo Z [um],Force A [uN],Force B [uN],Gripper [V],Voltage A [V],Voltage B [V],Temperature [oC],Sample Displacement [um],Filtered time [uN},Filtered force [uN],SG Force [uN],Est Force 2nd derivative,Filtered displacement [um],Sel Time [s],Sel Force [N],Sel Modulus Uncorrected [Pa],Sel Modulus Corrected [Pa],Sel Modulus GMM Fit [Pa],Sel Time Normalised [s m-2],Sel Force Normalised []
4.0,2.0,0.00864,15497.9,-857.904,-422.165,-27142.445,0.00063,-0.00035,-0.0586,-0.10268,,0.0,-0.00148,-0.00454,22.87592,-5.51948,15497.9,-0.10268,-0.108681,0.000385319,-0.0586,0.0,0.000249776,115546,115546,116833,0.0,1.0
4.0,2.0,4.96846,15498.2,-857.904,-422.1649,-27142.449,0.00036,-0.00025,4.90147,0.29172,,0.0,-0.00148,-0.0045,22.87592,-0.55966,15498.2,0.29172,0.290594,-9.00686e-06,4.90147,0.255,0.000214605,99276,99276,99323.2,2.9835e+16,0.380773
4.0,2.0,11.55875,15498.4,-857.903,-422.165,-27142.454,0.00013,-0.0003,11.49209,0.80879,,0.0,-0.00152,-0.00445,22.87589,6.03063,15498.4,0.80879,0.800112,1.29215e-05,11.49209,0.51,0.000208863,96620.1,96620.1,96602.7,5.967e+16,0.279694
4.0,2.0,18.04358,15498.7,-857.904,-422.165,-27142.5,0.00031,-0.00028,17.9772,1.24747,,0.0,-0.00147,-0.00445,22.87585,12.51546,15498.7,1.24747,1.25076,0.000280498,17.9772,0.765,0.000206822,95675.6,95675.6,95605.1,8.9505e+16,0.243747
4.0,2.0,24.47615,15498.9,-857.903,-422.165,-27142.457,-0.00022,-0.00034,24.41006,1.69309,,0.0,-0.00144,-0.00453,22.87593,18.94803,15498.9,1.69309,1.68304,0.000269807,24.41006,1.02,0.000204769,94725.9,94725.9,94937.9,1.1934e+17,0.207601
4.0,2.0,30.87012,15499.2,-857.904,-422.1641,-27142.5,-8e-05,-0.00012,30.82536,34.84285,,0.0,-0.00146,-0.00452,22.87589,25.342,15499.2,34.84285,34.9427,0.00522109,30.82536,1.275,0.000204455,94580.9,94580.9,94417.9,1.49175e+17,0.202083
4.0,2.0,37.25356,15499.4,-857.904,-422.164,-27142.461,0.00058,-0.0001,37.25215,102.211,,0.0,-0.00146,-0.00451,22.876,31.72544,15499.4,102.211,102.025,0.00452185,37.25215,1.53,0.000202833,93830.5,93830.5,93997,1.7901e+17,0.173525
4.0,2.0,43.61902,15499.7,-857.903,-422.164,-27142.462,0.00031,-0.00057,43.66661,178.341,,0.0,-0.00144,-0.00447,22.8759,38.0909,15499.7,178.341,178.699,0.00383485,43.66661,1.785,0.000202761,93797.1,93797.1,93648.7,2.08845e+17,0.172251
4.0,3.0,49.58633,15499.9,-857.904,-422.164,-27142.463,0.00135,-0.0002,49.67731,245.763,,0.0,-0.00146,-0.00451,22.87607,44.05821,,,,,,2.04,0.000201538,93231.2,93231.2,93354.8,2.3868e+17,0.150716
4.0,3.0,50.07294,15500.2,-857.904,-422.164,-27142.465,0.00031,0.0001,50.14466,215.84,,0.0,-0.00146,-0.00449,22.87612,44.54482,,,,,,2.295,0.00020133,93135,93135,93102.2,2.68515e+17,0.147055
4.0,3.0,50.03382,15500.4,-857.903,-422.164,-27142.465,0.0,0.00042,50.10269,211.418,,0.0,-0.00146,-0.00454,22.87607,44.5057,,,,,,2.55,0.000200832,92904.9,92904.9,92881,2.9835e+17,0.138295
4.0,3.0,50.02159,15500.7,-857.903,-422.165,-27142.465,-0.00012,0.0005,50.08908,209.257,,0.0,-0.00154,-0.00449,22.87608,44.49347,,,,,,2.805,0.000200273,92646.3,92646.3,92684.4,3.28185e+17,0.128455
4.0,3.0,50.01607,15501,-857.904,-422.165,-27142.464,0.00048,4e-05,50.08245,207.55,,0.0,-0.00149,-0.00452,22.87612,44.48795,,,,,,3.06,0.000200233,92627.8,92627.8,92507.1,3.5802e+17,0.127751
4.0,3.0,50.01464,15501.2,-857.904,-422.1641,-27142.464,0.00028,-5e-05,50.08067,206.988,,0.0,-0.00148,-0.00453,22.87632,44.48652,,,,,,3.315,0.000199364,92225.7,92225.7,92345.3,3.87855e+17,0.112447
4.0,3.0,50.01217,15501.5,-857.903,-422.165,-27142.466,-3e-05,-0.00021,50.07735,205.661,,0.0,-0.00147,-0.0045,22.87594,44.48405,,,,,,3.57,0.00019964,92353.3,92353.3,92196.2,4.1769e+17,0.117302
4.0,3.0,50.0117,15501.7,-857.904,-422.1639,-27142.469,0.0,-3e-05,50.07666,205.335,,0.0,-0.00145,-0.00448,22.87619,44.48358,,,,,,3.825,0.0001988529,91989.3,91989.3,92057.7,4.47525e+17,0.103448
4.0,3.0,50.00999,15502,-857.904,-422.165,-27142.467,0.00015,-8e-05,50.07427,204.278,,0.0,-0.00149,-0.00449,22.87631,44.48187,,,,,,4.08,0.000198993,92054.1,92054.1,91928.2,4.7736e+17,0.105914
4.0,3.0,50.0113,15502.2,-857.9032,-422.165,-27142.468,-0.00058,6e-05,50.0758,204.622,,0.0,-0.00149,-0.00448,22.87633,44.48318,,,,,,4.335,0.000198201,91687.5,91687.5,91806.4,5.07195e+17,0.0919639
4.0,3.0,50.00896,15502.5,-857.904,-422.165,-27142.469,-0.00013,-0.00046,50.07258,203.262,,0.0,-0.00149,-0.00447,22.87625,44.48084,,,,,,4.59,0.0001981414,91660.1,91660.1,91691.6,5.3703e+17,0.0909211
4.0,3.0,50.00924,15502.7,-857.904,-422.163,-27142.5,-0.00044,9e-05,50.07286,203.241,,0.0,-0.00149,-0.00447,22.87643,44.48112,,,,,,4.845,0.000198117,91648.7,91648.7,91582.8,5.66865e+17,0.0904866
4.0,3.0,50.00898,15503,-857.904,-422.165,-27142.468,4e-05,-2e-05,50.07234,202.837,,0.0,-0.00149,-0.00452,22.8762,44.48086,,,,,,5.1,0.000197406,91320.2,91320.2,91479.7,5.967e+17,0.0779822
4.0,3.0,50.00789,15503.3,-857.903,-422.165,-27142.469,2e-05,-0.00044,50.0708,202.157,,0.0,-0.00151,-0.0045,22.87634,44.47977,,,,,,5.355,0.000197813,91508.2,91508.2,91381.6,6.26535e+17,0.0851387
4.0,3.0,50.00876,15503.5,-857.903,-422.165,-27142.47,0.00066,0.00024,50.07177,202.308,,0.0,-0.00148,-0.00448,22.87623,44.48064,,,,,,5.61,0.000197073,91165.9,91165.9,91288.2,6.5637e+17,0.0721126
4.0,3.0,50.00704,15503.8,-857.904,-422.164,-27142.5,-0.00012,-1e-05,50.06942,201.326,,0.0,-0.00153,-0.00445,22.8765,44.47892,,,,,,5.865,0.000197452,91341.3,91341.3,91199.2,6.86205e+17,0.0787873
4.0,3.0,50.0081,15504,-857.903,-422.165,-27142.469,-0.0001,0.00011,50.0707,201.663,,0.0,-0.00149,-0.00449,22.87643,44.47998,,,,,,6.12,0.000196664,90976.6,90976.6,91114.4,7.1604e+17,0.0649064
4.0,3.0,50.0073,15504.3,-857.904,-422.165,-27142.47,-9e-05,-0.0001,50.06943,200.933,,0.0,-0.00146,-0.00447,22.87634,44.47918,,,,,,6.375,0.000196989,91127.2,91127.2,91033.4,7.45875e+17,0.0706371
4.0,3.0,50.00759,15504.5,-857.904,-422.164,-27142.469,9e-05,0.00042,50.06984,201.115,,0.0,-0.0015,-0.00448,22.87654,44.47947,,,,,,6.63,0.000196487,90894.8,90894.8,90956,7.7571e+17,0.0617933
4.0,3.0,50.00735,15504.8,-857.904,-422.164,-27142.5,-0.00046,-0.00015,50.06929,200.639,,0.0,-0.00152,-0.00447,22.87658,44.47923,,,,,,6.885,0.000196606,90950.1,90950.1,90882.1,8.05545e+17,0.0638965
4.0,3.0,50.0072,15505,-857.904,-422.167,-27142.5,-0.00028,-0.00075,50.06905,200.499,,0.0,-0.00154,-0.00452,22.87668,44.47908,,,,,,7.14,0.000196383,90846.6,90846.6,90811.6,8.3538e+17,0.0599584
4.0,3.0,50.00736,15505.3,-857.904,-422.165,-27142.5,-5e-05,0.00037,50.06911,200.342,,0.0,-0.00146,-0.00449,22.87659,44.47924,,,,,,7.395,0.0001960895,90710.9,90710.9,90744.1,8.65215e+17,0.0547951
4.0,3.0,50.00635,15505.5,-857.904,-422.165,-27142.471,0.0001,-0.0009,50.06773,199.762,,0.0,-0.0015,-0.00443,22.87649,44.47823,,,,,,7.65,0.000196303,90809.7,90809.7,90679.6,8.9505e+17,0.0585554
4.0,3.0,50.00734,15505.8,-857.904,-422.1641,-27142.5,9e-05,0.00019,50.06889,200.027,,0.0,-0.00148,-0.00454,22.87667,44.47923,,,,,,7.905,0.000195617,90492.2,90492.2,90618,9.24885e+17,0.0464728
4.0,3.0,50.00633,15506.1,-857.904,-422.165,-27142.472,-9e-05,9e-05,50.0675,199.446,,0.0,-0.00148,-0.00455,22.87677,44.47821,,,,,,8.16,0.000196023,90680.1,90680.1,90559.1,9.5472e+17,0.0536237
4.0,3.0,50.00737,15506.3,-857.904,-422.164,-27142.471,-0.00039,2e-05,50.06876,199.782,,0.0,-0.00151,-0.00458,22.87678,44.47925,,,,,,8.415,0.000195446,90413.5,90413.5,90502.7,9.84555e+17,0.0434741
4.0,3.0,50.00629,15506.6,-857.904,-422.164,-27142.471,-7e-05,0.00013,50.06728,199.166,,0.0,-0.00147,-0.00454,22.87673,44.47817,,,,,,8.67,0.000195788,90571.4,90571.4,90448.9,1.01439e+18,0.0494856
4.0,3.0,50.00704,15506.8,-857.903,-422.164,-27142.5,0.00026,0.00039,50.06825,199.499,,0.0,-0.00143,-0.00455,22.87676,44.47892,,,,,,8.925,0.00019546,90419.6,90419.6,90397.4,1.04422e+18,0.0437088
4.0,3.0,50.00646,15507.1,-857.904,-422.166,-27142.47,-0.00018,-0.00037,50.06729,198.919,,0.0,-0.00146,-0.00451,22.87684,44.47834,,,,,,9.18,0.000195415,90398.9,90398.9,90348.1,1.07406e+18,0.0429199
4.0,3.0,50.00669,15507.3,-857.903,-422.164,-27142.5,7e-05,-0.00018,50.06763,199.077,,0.0,-0.00153,-0.00454,22.8768,44.47858,,,,,,9.435,0.00019523,90313.1,90313.1,90301,1.10389e+18,0.0396557
4.0,3.0,50.00673,15507.6,-857.903,-422.166,-27142.471,-0.00026,-0.0002,50.0675,198.822,,0.0,-0.00152,-0.00456,22.87677,44.47861,,,,,,,,,,,,
4.0,3.0,50.00626,15507.8,-857.9022,-422.164,-27142.5,-0.00055,0.00028,50.06684,198.526,,0.0,-0.00156,-0.00452,22.87688,44.47815,,,,,,,,,,,,
4.0,3.0,50.00684,15508.1,-857.904,-422.165,-27142.47,-0.00015,0.00018,50.06753,198.697,,0.0,-0.0015,-0.00452,22.87691,44.47873,,,,,,,,,,,,
4.0,3.0,50.00592,15508.4,-857.904,-422.165,-27142.5,-0.00029,2e-05,50.06625,198.143,,0.0,-0.00152,-0.00448,22.87696,44.4778,,,,,,,,,,,,
4.0,3.0,50.00681,15508.6,-857.904,-422.165,-27142.471,4e-05,0.00059,50.06744,198.611,,0.0,-0.00153,-0.00454,22.87672,44.47869,,,,,,,,,,,,
4.0,3.0,50.00586,15508.9,-857.903,-422.164,-27142.471,4e-05,-0.00076,50.06603,197.896,,0.0,-0.0015,-0.00452,22.877,44.47774,,,,,,,,,,,,
4.0,3.0,50.00596,15509.1,-857.902,-422.165,-27142.471,0.00051,0.00017,50.06626,198.083,,0.0,-0.00153,-0.00454,22.8769,44.47784,,,,,,,,,,,,
4.0,3.0,50.0062,15509.4,-857.9041,-422.165,-27142.5,0.00023,-0.00014,50.06628,197.756,,0.0,-0.00151,-0.00453,22.87712,44.47808,,,,,,,,,,,,
4.0,3.0,50.00624,15509.6,-857.904,-422.165,-27142.471,0.00015,0.00013,50.0664,197.887,,0.0,-0.00153,-0.00454,22.87708,44.47812,,,,,,,,,,,,
4.0,3.0,50.00664,15509.9,-857.904,-422.164,-27142.5,-0.00033,5e-05,50.06677,197.835,,0.0,-0.00147,-0.00451,22.87716,44.47852,,,,,,,,,,,,
4.0,4.0,45.66508,15510.1,-857.903,-422.164,-27142.471,-0.00025,0.00051,45.64175,68.13697,,0.0,-0.0015,-0.00453,22.877,40.13696,,,,,,,,,,,,
4.0,4.0,39.03029,15510.4,-857.904,-422.165,-27142.5,7e-05,0.00012,38.98461,33.41258,,0.0,-0.00148,-0.00452,22.87707,33.50217,,,,,,,,,,,,
4.0,4.0,32.46877,15510.6,-857.903,-422.164,-27142.471,-0.00012,-3e-05,32.40978,12.71682,,0.0,-0.0015,-0.00449,22.87715,26.94065,,,,,,,,,,,,
4.0,4.0,25.9695,15510.9,-857.903,-422.164,-27142.5,-0.00015,0.00012,25.90224,-0.1265,,0.0,-0.00153,-0.00449,22.87707,20.44138,,,,,,,,,,,,
4.0,4.0,19.49875,15511.2,-857.903,-422.163,-27142.471,0.00012,8e-05,19.43104,-0.8174,,0.0,-0.0015,-0.00451,22.87704,13.97063,,,,,,,,,,,,
4.0,4.0,13.05161,15511.4,-857.903,-422.164,-27142.471,-0.0003,1e-05,12.98349,-1.47274,,0.0,-0.00151,-0.00451,22.8771,7.52349,,,,,,,,,,,,
4.0,4.0,6.62201,15511.7,-857.904,-422.164,-27142.47,-0.0001,0.00054,6.55344,-2.15986,,0.0,-0.00147,-0.00453,22.87729,1.09389,,,,,,,,,,,,
4.0,4.0,0.42418,15511.9,-857.904,-422.164,-27142.47,-0.00025,0.00022,0.35521,-2.79064,,0.0,-0.00152,-0.00451,22.87729,-5.10394,,,,,,,,,,,,
4.0,4.0,0.21282,15511.9,-857.904,-422.166,-27142.5,5e-05,2e-05,0.14384,-2.80513,,0.0,-0.0015,-0.00452,22.87737,-5.3153,,,,,,,,,,,,

File: data_1_6_GMM Fit.csv
Index [#],Phase [#],Displacement [um],Time [s],Pos X [um],Pos Y [um],Pos Z [um],Piezo X [um],Piezo Y [um],Piezo Z [um],Force A [uN],Force B [uN],Gripper [V],Voltage A [V],Voltage B [V],Temperature [oC],Sample Displacement [um],Filtered time [uN},Filtered force [uN],SG Force [uN],Est Force 2nd derivative,Filtered displacement [um],Sel Time [s],Sel Force [N],Sel Modulus Uncorrected [Pa],Sel Modulus Corrected [Pa],Sel Modulus GMM Fit [Pa],Sel Time Normalised [s m-2],Sel Force Normalised []
5.0,2.0,0.00786,15519.6,-1357.907,-422.167,-27140.015,0.00021,0.00086,-0.072,-0.14391,,0.0,-0.00151,-0.00457,22.87817,3.46148,15519.6,-0.14391,-0.149849,0.000314793,-0.072,0.0,0.000288937,135518,135518,137419,0.0,1.0
5.0,2.0,4.96511,15519.8,-1357.91,-422.166,-27140.017,-3e-05,-6e-05,4.88551,0.27057,,0.0,-0.00146,-0.00457,22.87831,8.41874,15519.8,0.27057,0.282867,-6.4136e-05,4.88551,0.255,0.0002510259,117737,117737,117966,3.03887e+16,0.451366
5.0,2.0,11.5572,15520.1,-1357.91,-422.167,-27140.019,-3e-05,-9e-05,11.47795,0.80438,,0.0,-0.00154,-0.00452,22.87823,15.01082,15520.1,0.80438,0.790883,-0.000116877,11.47795,0.51,0.000244205,114538,114538,114289,6.07774e+16,0.352654
5.0,2.0,18.04012,15520.3,-1357.906,-422.166,-27140.02,0.00021,-0.00023,17.96112,1.20788,,0.0,-0.00161,-0.00455,22.8782,21.49374,15520.3,1.20788,1.21661,-0.000102634,17.96112,0.765,0.0002404627,112783,112783,112925,9.11662e+16,0.298501
5.0,2.0,24.47342,15520.6,-1357.91,-422.166,-27140.021,5e-05,-0.00041,24.39461,1.49623,,0.0,-0.00151,-0.00456,22.87827,27.92704,15520.6,1.49623,1.47036,0.00127345,24.39461,1.02,0.000239113,112149,112149,112038,1.21555e+17,0.278962
5.0,2.0,30.86601,15520.9,-1357.906,-422.167,-27140.023,-0.00042,-0.00061,30.81314,41.79681,,0.0,-0.00147,-0.00456,22.87852,34.31964,15520.9,41.79681,41.8852,0.00340679,30.81314,1.275,0.000237087,111199,111199,111347,1.51944e+17,0.249648
5.0,2.0,37.24831,15521.1,-1357.91,-422.166,-27140.024,1e-05,-8e-05,37.2479,123.327,,0.0,-0.00156,-0.00456,22.87848,40.70193,15521.1,123.327,123.218,0.00435151,37.2479,1.53,0.00023636,110858,110858,110782,1.82332e+17,0.239126
5.0,2.0,43.6152,15521.4,-1357.907,-422.167,-27140.025,4e-05,-0.00022,43.67198,212.203,,0.0,-0.0016,-0.00454,22.87844,47.06882,15521.4,212.203,212.122,0.00245561,43.67198,1.785,0.000235246,110336,110336,110309,2.12721e+17,0.223001
5.0,3.0,49.58074,15521.6,-1357.906,-422.167,-27140.025,-0.00024,8e-05,49.68428,284.852,,0.0,-0.00152,-0.00459,22.87873,53.03437,,,,,,2.04,0.000234319,109901,109901,109908,2.4311e+17,0.209594
5.0,3.0,50.07161,15521.9,-1357.906,-422.166,-27140.026,-0.00018,0.00024,50.15448,252.739,,0.0,-0.00146,-0.00448,22.87847,53.52523,,,,,,2.295,0.000233795,109655,109655,109562,2.73498e+17,0.202007
5.0,3.0,50.03092,15522.1,-1357.91,-422.166,-27140.028,-0.00072,-0.00078,50.10943,245.9547,,0.0,-0.0015,-0.00451,22.87856,53.48455,,,,,,2.55,0.000232781,109180,109180,109259,3.03887e+17,0.187333
5.0,3.0,50.01948,15522.4,-1357.906,-422.167,-27140.028,-3e-05,0.00011,50.09662,243.829,,0.0,-0.0015,-0.00454,22.8785,53.4731,,,,,,2.805,0.000232644,109116,109116,108989,3.34276e+17,0.185353
5.0,3.0,50.01353,15522.6,-1357.906,-422.166,-27140.028,0.0004,-0.00034,50.08899,241.225,,0.0,-0.00151,-0.00454,22.87858,53.46715,,,,,,3.06,0.00023162,108635,108635,108745,3.64665e+17,0.170535
5.0,3.0,50.01158,15522.9,-1357.906,-422.167,-27140,-0.00029,-8e-05,50.08647,240.338,,0.0,-0.00149,-0.00452,22.87853,53.46521,,,,,,3.315,0.000231646,108648,108648,108523,3.95053e+17,0.170915
5.0,3.0,50.0101,15523.1,-1357.906,-422.167,-27140.028,0.00012,-0.0003,50.08411,238.976,,0.0,-0.00146,-0.00452,22.87853,53.46372,,,,,,3.57,0.000230738,108222,108222,108318,4.25442e+17,0.157774
5.0,3.0,50.00832,15523.4,-1357.906,-422.167,-27140,-0.00015,-0.00023,50.08165,237.9207,,0.0,-0.00154,-0.00454,22.87863,53.46194,,,,,,3.825,0.000230624,108168,108168,108127,4.55831e+17,0.156118
5.0,3.0,50.00854,15523.7,-1357.91,-422.165,-27140.028,0.00019,0.00012,50.08161,237.511,,0.0,-0.00143,-0.00455,22.87862,53.46216,,,,,,4.08,0.000230146,107944,107944,107947,4.8622e+17,0.149202
5.0,3.0,50.00679,15523.9,-1357.91,-422.167,-27140.028,-0.00011,-0.00017,50.07909,236.3,,0.0,-0.00145,-0.00446,22.87882,53.46042,,,,,,4.335,0.000229655,107714,107714,107778,5.16608e+17,0.142102
5.0,3.0,50.00742,15524.2,-1357.91,-422.166,-27140.029,0.00028,0.00014,50.07966,236.223,,0.0,-0.00145,-0.00456,22.8788,53.46104,,,,,,4.59,0.000229624,107699,107699,107618,5.46997e+17,0.14165
5.0,3.0,50.00584,15524.4,-1357.91,-422.167,-27140.029,0.00014,-0.00013,50.07733,235.049,,0.0,-0.0015,-0.00454,22.87864,53.45946,,,,,,4.845,0.000228785,107306,107306,107465,5.77386e+17,0.129506
5.0,3.0,50.00643,15524.7,-1357.91,-422.167,-27140.028,-0.00033,0.00054,50.07792,235.057,,0.0,-0.0015,-0.00458,22.87864,53.46005,,,,,,5.1,0.000229014,107413,107413,107319,6.07774e+17,0.132817
5.0,3.0,50.00547,15524.9,-1357.907,-422.167,-27140.028,-0.00042,0.0001,50.07633,234.077,,0.0,-0.0015,-0.00458,22.87879,53.45909,,,,,,5.355,0.0002282,107031,107031,107179,6.38163e+17,0.121044
5.0,3.0,50.00577,15525.2,-1357.906,-422.168,-27140.028,-0.00014,0.00055,50.07661,234.036,,0.0,-0.00152,-0.00451,22.87876,53.4594,,,,,,5.61,0.000228467,107156,107156,107044,6.68552e+17,0.1249
5.0,3.0,50.0056,15525.4,-1357.91,-422.167,-27140.029,-0.00028,-0.00025,50.07613,233.552,,0.0,-0.00152,-0.0045,22.87881,53.45923,,,,,,5.865,0.000227796,106842,106842,106914,6.98941e+17,0.115196
5.0,3.0,50.00465,15525.7,-1357.91,-422.166,-27140.029,-0.00018,0.00053,50.07473,232.853,,0.0,-0.00153,-0.00455,22.8787,53.45827,,,,,,6.12,0.000227574,106738,106738,106790,7.29329e+17,0.111979
5.0,3.0,50.00555,15526,-1357.91,-422.167,-27140.029,0.00021,-0.00049,50.07572,233.01,,0.0,-0.00146,-0.00451,22.87903,53.45917,,,,,,6.375,0.000227584,106743,106743,106670,7.59718e+17,0.112134
5.0,3.0,50.00443,15526.2,-1357.906,-422.167,-27140.028,0.0003,-0.00035,50.07401,232.083,,0.0,-0.00153,-0.0045,22.87879,53.45805,,,,,,6.63,0.000226895,106419,106419,106553,7.90107e+17,0.102157
5.0,3.0,50.0054,15526.5,-1357.91,-422.167,-27140.03,0.00013,0.00012,50.07518,232.407,,0.0,-0.00149,-0.00449,22.87908,53.45902,,,,,,6.885,0.000227052,106493,106493,106441,8.20495e+17,0.104426
5.0,3.0,50.00434,15526.7,-1357.907,-422.166,-27140.029,0.00033,-0.00037,50.07358,231.556,,0.0,-0.00145,-0.00448,22.87912,53.45796,,,,,,7.14,0.00022651,106239,106239,106333,8.50884e+17,0.0965915
5.0,3.0,50.00466,15527,-1357.906,-422.166,-27140.029,0.00015,4e-05,50.07391,231.569,,0.0,-0.00152,-0.00449,22.87925,53.45828,,,,,,7.395,0.000226746,106349,106349,106229,8.81273e+17,0.100005
5.0,3.0,50.00445,15527.2,-1357.907,-422.167,-27140,-0.00022,0.00027,50.07338,231.086,,0.0,-0.0015,-0.00452,22.8792,53.45807,,,,,,7.65,0.000226095,106044,106044,106127,9.11662e+17,0.0905851
5.0,3.0,50.00431,15527.5,-1357.906,-422.166,-27140,-0.00016,0.00021,50.07313,230.907,,0.0,-0.0015,-0.00449,22.87905,53.45793,,,,,,7.905,0.000226232,106108,106108,106030,9.4205e+17,0.0925683
5.0,3.0,50.00484,15527.7,-1357.91,-422.167,-27140.029,-0.00011,-0.00053,50.07369,230.94,,0.0,-0.00153,-0.00455,22.87899,53.45847,,,,,,8.16,0.000225776,105894,105894,105935,9.72439e+17,0.0859616
5.0,3.0,50.00383,15528,-1357.906,-422.167,-27140,-4e-05,-0.00017,50.07221,230.221,,0.0,-0.00151,-0.00448,22.87931,53.45745,,,,,,8.415,0.000225746,105880,105880,105844,1.00283e+18,0.0855302
5.0,3.0,50.00457,15528.2,-1357.906,-422.167,-27140.031,0.00039,6e-05,50.07309,230.431,,0.0,-0.00157,-0.00447,22.87918,53.4582,,,,,,8.67,0.000225578,105802,105802,105755,1.03322e+18,0.0831016
5.0,3.0,50.00351,15528.5,-1357.91,-422.166,-27140.03,-0.00063,-0.00035,50.07151,229.622,,0.0,-0.00145,-0.00445,22.87934,53.45713,,,,,,8.925,0.000225172,105611,105611,105669,1.06361e+18,0.0772203
5.0,3.0,50.00455,15528.8,-1357.906,-422.166,-27140.03,-0.00041,-8e-05,50.0728,230.0183,,0.0,-0.00152,-0.00447,22.87928,53.45817,,,,,,9.18,0.000225371,105704,105704,105587,1.09399e+18,0.0800946
5.0,3.0,50.00397,15529,-1357.91,-422.167,-27140.03,-0.00027,0.00018,50.07178,229.344,,0.0,-0.00152,-0.00447,22.87921,53.45759,,,,,,9.435,0.000224551,105320,105320,105507,1.12438e+18,0.0682379
5.0,3.0,50.00382,15529.3,-1357.907,-422.167,-27140.031,0.00048,-0.00025,50.07163,229.332,,0.0,-0.00148,-0.0045,22.87924,53.45745,,,,,,,,,,,,
5.0,3.0,50.0041,15529.5,-1357.91,-422.166,-27140,-0.00013,-0.00019,50.07175,229.09,,0.0,-0.00144,-0.00446,22.87938,53.45772,,,,,,,,,,,,
5.0,3.0,50.00353,15529.8,-1357.907,-422.167,-27140.028,7e-05,-0.00024,50.07097,228.761,,0.0,-0.00147,-0.00449,22.87923,53.45715,,,,,,,,,,,,
5.0,3.0,50.00398,15530,-1357.91,-422.166,-27140,-4e-05,-0.00065,50.07139,228.708,,0.0,-0.00154,-0.00453,22.87929,53.4576,,,,,,,,,,,,
5.0,3.0,50.00333,15530.3,-1357.906,-422.167,-27140.029,0.0004,0.0002,50.07046,228.271,,0.0,-0.00152,-0.00449,22.87923,53.45696,,,,,,,,,,,,
5.0,3.0,50.00421,15530.5,-1357.91,-422.1661,-27140,-2e-05,0.00041,50.07148,228.497,,0.0,-0.00152,-0.00452,22.87941,53.45783,,,,,,,,,,,,
5.0,3.0,50.00336,15530.8,-1357.91,-422.166,-27140.031,-0.0004,0.00022,50.07023,227.883,,0.0,-0.00147,-0.00458,22.8795,53.45698,,,,,,,,,,,,
5.0,3.0,50.00409,15531.1,-1357.91,-422.1661,-27140.029,-2e-05,0.00016,50.07115,228.163,,0.0,-0.00152,-0.00453,22.87939,53.45772,,,,,,,,,,,,
5.0,3.0,50.00378,15531.3,-1357.91,-422.167,-27140.031,-0.00039,9e-05,50.07048,227.614,,0.0,-0.00153,-0.00457,22.87953,53.4574,,,,,,,,,,,,
5.0,3.0,50.00354,15531.6,-1357.91,-422.167,-27140.029,0.00027,4e-05,50.07024,227.608,,0.0,-0.00146,-0.00451,22.87949,53.45716,,,,,,,,,,,,
5.0,4.0,45.66825,15531.8,-1357.906,-422.167,-27140,0.00047,-0.00033,45.63709,75.54168,,0.0,-0.00153,-0.00453,22.87963,49.12188,,,,,,,,,,,,
5.0,4.0,39.0272,15532.1,-1357.91,-422.167,-27140.03,8e-05,-0.00022,38.97002,35.10665,,0.0,-0.00149,-0.00451,22.87947,42.48082,,,,,,,,,,,,
5.0,4.0,32.46781,15532.3,-1357.907,-422.167,-27140.03,-1e-05,0.0004,32.39643,13.05334,,0.0,-0.00154,-0.00455,22.87968,35.92143,,,,,,,,,,,,
5.0,4.0,25.96565,15532.6,-1357.906,-422.1661,-27140.03,2e-05,0.00033,25.88549,-0.59824,,0.0,-0.00156,-0.0045,22.87959,29.41927,,,,,,,,,,,,
5.0,4.0,19.49752,15532.8,-1357.906,-422.167,-27140.03,5e-05,0.00054,19.41694,-1.25766,,0.0,-0.00154,-0.00451,22.87946,22.95115,,,,,,,,,,,,
5.0,4.0,13.04823,15533.1,-1357.907,-422.1671,-27140.029,-0.00024,0.00036,12.96721,-1.94171,,0.0,-0.00156,-0.00452,22.87965,16.50186,,,,,,,,,,,,
5.0,4.0,6.6206,15533.3,-1357.907,-422.167,-27140,-0.00017,0.0002,6.53916,-2.59584,,0.0,-0.00157,-0.00451,22.87951,10.07423,,,,,,,,,,,,
5.0,4.0,0.42253,15533.6,-1357.91,-422.166,-27140,-0.0002,-4e-05,0.34067,-3.24105,,0.0,-0.00145,-0.00452,22.87975,3.87615,,,,,,,,,,,,
5.0,4.0,0.20966,15533.6,-1357.907,-422.166,-27140.03,-0.00041,-0.00057,0.1278,-3.24857,,0.0,-0.00145,-0.00451,22.87975,3.66329,,,,,,,,,,,,