Folder: ALIAS-Viscoelasticity/dataset_example/processed_data/ForceRelax_example/data/data_1_Measurements/GMM Fitting Results (part 5)

File: data_1_9_GMM Fit.csv
Index [#],Phase [#],Displacement [um],Time [s],Pos X [um],Pos Y [um],Pos Z [um],Piezo X [um],Piezo Y [um],Piezo Z [um],Force A [uN],Force B [uN],Gripper [V],Voltage A [V],Voltage B [V],Temperature [oC],Sample Displacement [um],Filtered time [uN},Filtered force [uN],SG Force [uN],Est Force 2nd derivative,Filtered displacement [um],Sel Time [s],Sel Force [N],Sel Modulus Uncorrected [Pa],Sel Modulus Corrected [Pa],Sel Modulus GMM Fit [Pa],Sel Time Normalised [s m-2],Sel Force Normalised []
8.0,2.0,0.01418,15584.706,-357.905,77.837,-27145.978,-0.0001,-0.00032,-0.11893,-0.25804,,0.0,-0.00151,-0.00454,22.88541,-15.7808,15584.706,-0.25804,-0.26183,0.000344385,-0.11893,0.0,0.0002568688,117821,117821,118853,0.0,1.0
8.0,2.0,4.97412,15584.961,-357.908,77.837,-27146,-5e-05,-0.00032,4.84123,0.08081,,0.0,-0.0015,-0.00457,22.88554,-10.82086,15584.961,0.08081,0.0654835,9.60994e-05,4.84123,0.255,0.00022387,102685,102685,102790,2.94985e+16,0.439249
8.0,2.0,11.56303,15585.216,-357.906,77.837,-27145.98,-0.00022,-0.00036,11.43043,0.52757,,0.0,-0.00147,-0.00456,22.88547,-4.23195,15585.216,0.52757,0.524311,4.52731e-05,11.43043,0.51,0.000217827,99913.2,99913.2,99815.3,5.8997e+16,0.33656
8.0,2.0,18.04799,15585.471,-357.907,77.837,-27145.98,0.00018,0.00055,17.91565,0.9386,,0.0,-0.00149,-0.00452,22.88554,2.25301,15585.471,0.9386,0.935413,0.000477176,17.91565,0.765,0.000215133,98677.4,98677.4,98637.6,8.84954e+16,0.290776
8.0,2.0,24.48003,15585.726,-357.907,77.837,-27145.981,-0.00012,-0.00042,24.34798,1.38748,,0.0,-0.00158,-0.00456,22.88555,8.68505,15585.726,1.38748,1.37526,0.00110432,24.34798,1.02,0.000213055,97724,97724,97849,1.17994e+17,0.255456
8.0,2.0,30.87381,15585.981,-357.9061,77.837,-27146,-0.00015,0.00061,30.76605,39.13258,,0.0,-0.0015,-0.00459,22.88549,15.07883,15585.981,39.13258,39.1591,0.00273649,30.76605,1.275,0.0002122766,97367.2,97367.2,97235.8,1.47492e+17,0.242235
8.0,2.0,37.25639,15586.236,-357.907,77.83701,-27145.983,0.00011,-0.00062,37.19483,110.916,,0.0,-0.00152,-0.00459,22.88567,21.46141,15586.236,110.916,110.825,0.00293777,37.19483,1.53,0.000210629,96611.4,96611.4,96739.4,1.76991e+17,0.214237
8.0,2.0,43.6216,15586.491,-357.907,77.83785,-27146,-0.00041,-0.00028,43.61046,189.27,,0.0,-0.00144,-0.00463,22.88568,27.82662,15586.491,189.27,189.384,0.000694104,43.61046,1.785,0.000210273,96448.2,96448.2,96328.3,2.06489e+17,0.208188
8.0,3.0,49.58678,15586.746,-357.906,77.838,-27145.982,-0.00038,0.00017,49.61687,253.339,,0.0,-0.00138,-0.00457,22.88578,33.79181,,,,,,2.04,0.000209128,95923.1,95923.1,95981,2.35988e+17,0.188735
8.0,3.0,50.0766,15587.001,-357.906,77.83715,-27146,0.00019,-0.00018,50.08849,225.063,,0.0,-0.00149,-0.00452,22.88574,34.28162,,,,,,2.295,0.0002087232,95737.3,95737.3,95682,2.65486e+17,0.181852
8.0,3.0,50.03862,15587.256,-357.907,77.837,-27146,-0.0003,0.00015,50.04735,220.144,,0.0,-0.00141,-0.00451,22.88567,34.24365,,,,,,2.55,0.000208014,95411.9,95411.9,95420,2.94985e+17,0.169797
8.0,3.0,50.02588,15587.511,-357.907,77.83771,-27146,0.00031,4e-05,50.03282,217.368,,0.0,-0.00143,-0.00453,22.88576,34.2309,,,,,,2.805,0.000207377,95119.8,95119.8,95186.7,3.24483e+17,0.158976
8.0,3.0,50.02096,15587.766,-357.906,77.837,-27145.986,0.00033,-0.0,50.02684,215.725,,0.0,-0.00145,-0.00453,22.88574,34.22598,,,,,,3.06,0.000207247,95060.2,95060.2,94975.9,3.53982e+17,0.156768
8.0,3.0,50.0192,15588.021,-357.906,77.83721,-27146,0.00015,3e-05,50.02442,214.693,,0.0,-0.00149,-0.00447,22.88583,34.22422,,,,,,3.315,0.000206366,94656,94656,94783.2,3.8348e+17,0.141793
8.0,3.0,50.01675,15588.276,-357.906,77.837,-27145.985,9e-05,-0.0004,50.02109,213.326,,0.0,-0.00144,-0.00453,22.88594,34.22177,,,,,,3.57,0.000206439,94689.7,94689.7,94605.1,4.12979e+17,0.143041
8.0,3.0,50.01642,15588.531,-357.906,77.837,-27146,0.0003,9e-05,50.02045,212.838,,0.0,-0.00139,-0.00452,22.88582,34.22145,,,,,,3.825,0.000205771,94383.3,94383.3,94439.3,4.42477e+17,0.131688
8.0,3.0,50.01479,15588.786,-357.906,77.83799,-27145.985,0.0002,0.00017,50.01804,211.622,,0.0,-0.00148,-0.0045,22.88594,34.21981,,,,,,4.08,0.000205565,94288.5,94288.5,94283.8,4.71976e+17,0.128177
8.0,3.0,50.01464,15589.041,-357.906,77.837,-27146,0.00023,0.00039,50.01773,211.378,,0.0,-0.00151,-0.00453,22.88594,34.21966,,,,,,4.335,0.000205186,94114.9,94114.9,94137.3,5.01474e+17,0.121745
8.0,3.0,50.01361,15589.296,-357.906,77.837,-27145.986,-0.00038,-5e-05,50.01608,210.415,,0.0,-0.0014,-0.00452,22.88594,34.21863,,,,,,4.59,0.000204805,93940.3,93940.3,93998.6,5.30973e+17,0.115276
8.0,3.0,50.01353,15589.551,-357.907,77.837,-27145.985,-0.00033,-2e-05,50.01589,210.245,,0.0,-0.00145,-0.0045,22.8859,34.21855,,,,,,4.845,0.000204796,93935.8,93935.8,93866.9,5.60471e+17,0.115111
8.0,3.0,50.01355,15589.806,-357.907,77.837,-27145.985,0.00013,9e-05,50.01557,209.715,,0.0,-0.00148,-0.00449,22.88575,34.21857,,,,,,5.1,0.00020413,93630.7,93630.7,93741.6,5.8997e+17,0.103807
8.0,3.0,50.01272,15590.061,-357.907,77.8371,-27146,0.00036,-7e-05,50.01437,209.144,,0.0,-0.00139,-0.00449,22.88597,34.21775,,,,,,5.355,0.000204303,93709.8,93709.8,93622,6.19468e+17,0.106736
8.0,3.0,50.01333,15590.316,-357.907,77.837,-27145.987,0.00022,-0.00011,50.01498,209.147,,0.0,-0.00141,-0.00451,22.88619,34.21835,,,,,,5.61,0.000203663,93416.5,93416.5,93507.8,6.48967e+17,0.0958709
8.0,3.0,50.01218,15590.571,-357.906,77.83715,-27146,0.00039,-5e-05,50.01325,208.249,,0.0,-0.00148,-0.00453,22.88616,34.2172,,,,,,5.865,0.000203892,93521.5,93521.5,93398.6,6.78465e+17,0.099761
8.0,3.0,50.01269,15590.826,-357.906,77.837,-27145.987,6e-05,0.00012,50.01388,208.434,,0.0,-0.00145,-0.00455,22.88619,34.21771,,,,,,6.12,0.000203278,93239.6,93239.6,93294.1,7.07963e+17,0.0893168
8.0,3.0,50.01212,15591.081,-357.9069,77.83785,-27146,-0.00026,0.00042,50.01285,207.708,,0.0,-0.00143,-0.00447,22.88632,34.21714,,,,,,6.375,0.000203335,93265.9,93265.9,93194,7.37462e+17,0.0902922
8.0,3.0,50.01235,15591.336,-357.906,77.83799,-27145.986,4e-05,0.00033,50.01309,207.733,,0.0,-0.00144,-0.00449,22.88608,34.21737,,,,,,6.63,0.000202999,93111.9,93111.9,93098.1,7.6696e+17,0.0845874
8.0,3.0,50.0119,15591.591,-357.907,77.837,-27146,-0.00013,-0.00019,50.01228,207.173,,0.0,-0.00145,-0.00448,22.886,34.21692,,,,,,6.885,0.000202565,92912.8,92912.8,93006.2,7.96459e+17,0.0772101
8.0,3.0,50.01156,15591.846,-357.907,77.837,-27145.986,-0.00015,-0.00031,50.01179,206.936,,0.0,-0.00151,-0.00449,22.88621,34.21658,,,,,,7.14,0.000202767,93005.5,93005.5,92918.1,8.25957e+17,0.0806448
8.0,3.0,50.0124,15592.101,-357.9061,77.837,-27146,9e-05,-0.0002,50.01267,207.005,,0.0,-0.00144,-0.00447,22.88632,34.21742,,,,,,7.395,0.000202111,92704.5,92704.5,92833.6,8.55456e+17,0.069494
8.0,3.0,50.01133,15592.356,-357.907,77.837,-27145.986,0.00024,-0.00016,50.01114,206.283,,0.0,-0.00143,-0.00448,22.88651,34.21635,,,,,,7.65,0.00020241,92841.4,92841.4,92752.6,8.84954e+17,0.0745636
8.0,3.0,50.0125,15592.611,-357.906,77.837,-27145.987,-9e-05,0.00031,50.01252,206.62,,0.0,-0.00151,-0.00449,22.88616,34.21752,,,,,,7.905,0.000201967,92638.4,92638.4,92674.8,9.14453e+17,0.0670431
8.0,3.0,50.01097,15592.866,-357.906,77.837,-27146,-0.00037,-0.00018,50.01038,205.657,,0.0,-0.00158,-0.00447,22.88637,34.21599,,,,,,8.16,0.000201943,92627.3,92627.3,92600.2,9.43951e+17,0.0666307
8.0,3.0,50.01182,15593.121,-357.906,77.837,-27146,-7e-05,0.00066,50.01149,206.075,,0.0,-0.00154,-0.00445,22.88645,34.21684,,,,,,8.415,0.000201756,92541.6,92541.6,92528.6,9.7345e+17,0.0634589
8.0,3.0,50.01103,15593.376,-357.906,77.838,-27146,-0.0003,-4e-05,50.01028,205.413,,0.0,-0.0015,-0.0045,22.88637,34.21606,,,,,,8.67,0.000201453,92402.7,92402.7,92460,1.00295e+18,0.0583105
8.0,3.0,50.01143,15593.631,-357.906,77.8379,-27145.986,0.00014,5e-05,50.01075,205.516,,0.0,-0.00154,-0.00454,22.88651,34.21645,,,,,,8.925,0.000201636,92486.4,92486.4,92394.1,1.03245e+18,0.0614119
8.0,3.0,50.01193,15593.886,-357.907,77.837,-27145.986,0.00042,-0.00038,50.01121,205.456,,0.0,-0.00152,-0.00449,22.88647,34.21696,,,,,,9.18,0.000201036,92211.3,92211.3,92330.9,1.06195e+18,0.0512202
8.0,3.0,50.01075,15594.141,-357.906,77.837,-27146,0.0002,-4e-05,50.00964,204.864,,0.0,-0.00147,-0.00449,22.88668,34.21577,,,,,,9.435,0.000201347,92354.1,92354.1,92270.2,1.09144e+18,0.0565109
8.0,3.0,50.01162,15594.396,-357.906,77.837,-27145.985,-7e-05,0.00013,50.01072,205.1766,,0.0,-0.00152,-0.0045,22.88637,34.21664,,,,,,,,,,,,
8.0,3.0,50.0109,15594.651,-357.9061,77.83785,-27145.985,-7e-05,-0.00015,50.00955,204.491,,0.0,-0.0015,-0.00452,22.88657,34.21592,,,,,,,,,,,,
8.0,3.0,50.01157,15594.906,-357.907,77.837,-27146,-9e-05,0.0003,50.01045,204.84,,0.0,-0.00144,-0.00455,22.88671,34.2166,,,,,,,,,,,,
8.0,3.0,50.0108,15595.161,-357.907,77.837,-27145.986,-0.00073,-0.00024,50.00929,204.237,,0.0,-0.00153,-0.0045,22.8867,34.21582,,,,,,,,,,,,
8.0,3.0,50.01104,15595.416,-357.907,77.837,-27145.984,0.00011,-1e-05,50.00959,204.333,,0.0,-0.0015,-0.00459,22.88639,34.21606,,,,,,,,,,,,
8.0,3.0,50.01152,15595.671,-357.9061,77.837,-27145.986,1e-05,-0.0,50.00999,204.206,,0.0,-0.00154,-0.00453,22.88641,34.21654,,,,,,,,,,,,
8.0,3.0,50.01053,15595.926,-357.906,77.838,-27145.987,-0.00014,-2e-05,50.00869,203.718,,0.0,-0.00144,-0.00448,22.88658,34.21555,,,,,,,,,,,,
8.0,3.0,50.0115,15596.181,-357.906,77.83715,-27146,0.0004,5e-05,50.0099,204.088,,0.0,-0.00144,-0.0045,22.88664,34.21652,,,,,,,,,,,,
8.0,3.0,50.01004,15596.436,-357.906,77.83799,-27145.986,7e-05,0.00014,50.0079,203.258,,0.0,-0.00153,-0.00447,22.88674,34.21507,,,,,,,,,,,,
8.0,3.0,50.01184,15596.691,-357.906,77.83785,-27145.986,0.00018,0.00052,50.01015,203.963,,0.0,-0.00155,-0.00456,22.88674,34.21686,,,,,,,,,,,,
8.0,4.0,45.67248,15596.946,-357.906,77.838,-27145.987,-0.00017,-0.00015,45.58388,68.89881,,0.0,-0.00153,-0.00454,22.88664,29.8775,,,,,,,,,,,,
8.0,4.0,39.03511,15597.201,-357.9069,77.837,-27146,-3e-05,0.00064,38.92309,32.51498,,0.0,-0.00154,-0.00451,22.88686,23.24013,,,,,,,,,,,,
8.0,4.0,32.4746,15597.456,-357.907,77.838,-27145.986,-0.00019,0.00015,32.34962,12.36067,,0.0,-0.0015,-0.00453,22.88664,16.67963,,,,,,,,,,,,
8.0,4.0,25.97352,15597.711,-357.9069,77.837,-27145.987,0.00022,0.0001,25.84032,-0.39548,,0.0,-0.0015,-0.00455,22.88688,10.17854,,,,,,,,,,,,
8.0,4.0,19.50586,15597.966,-357.906,77.837,-27145.987,0.00076,0.00024,19.37224,-1.05533,,0.0,-0.00153,-0.00455,22.88667,3.71088,,,,,,,,,,,,
8.0,4.0,13.05622,15598.221,-357.906,77.837,-27145.986,9e-05,2e-05,12.92217,-1.737,,0.0,-0.00146,-0.00453,22.88696,-2.73875,,,,,,,,,,,,
8.0,4.0,6.62949,15598.476,-357.907,77.837,-27145.986,0.00023,0.00066,6.495,-2.39727,,0.0,-0.00149,-0.00459,22.88682,-9.16549,,,,,,,,,,,,
8.0,4.0,0.43124,15598.731,-357.9069,77.837,-27146,0.00022,8e-05,0.29635,-3.02965,,0.0,-0.00152,-0.00454,22.88688,-15.36373,,,,,,,,,,,,
8.0,4.0,0.21882,15598.751,-357.906,77.837,-27146,0.00024,0.00026,0.08391,-3.05977,,0.0,-0.00149,-0.0046,22.88676,-15.57615,,,,,,,,,,,,