Folder: ALIAS-Viscoelasticity/dataset_example/processed_data/ForceRelax_example/data/data_0_single curve_output/GMM Fitting Results

File: data_0_GMM Fit.csv
Index [#],Phase [#],Displacement [um],Time [s],Pos X [um],Pos Y [um],Pos Z [um],Piezo X [um],Piezo Y [um],Piezo Z [um],Force A [uN],Force B [uN],Gripper [V],Voltage A [V],Voltage B [V],Temperature [oC],Indent Depth [um],Filtered time [uN},Filtered force [uN],SG Force [uN],Est Force 2nd derivative,Filtered displacement [um],Sel Time [s],Sel Force [N],Sel Modulus Uncorrected [Pa],Sel Modulus Corrected [Pa],Sel Modulus GMM Fit [Pa],Sel Time Normalised [s m-2],Sel Force Normalised []
0.0,2.0,0.00827,14551.8,-857.869,-422.194,-27142.802,-0.00028,-0.00056,0.00872,-0.0166,,0.0,-0.00143,-0.00448,22.76728,22.17602,14551.8,0.00246,0.00421025,0.000300193,0.08271,0.015,0.000267192,115683,115683,115608,1606684507186777.5,0.960346
0.0,2.0,5.06034,14552.1,-857.869,-422.195,-27142.802,-0.0001,0.0,5.06116,0.56085,,0.0,-0.0014,-0.00451,22.76747,27.22808,14552.1,0.60597,0.601291,8.5266e-05,5.45199,0.27,0.000226824,98205.1,98205.1,98300.6,2.89203e+16,0.382075
0.0,2.0,11.67001,14552.3,-857.869,-422.195,-27142.8,-0.0003,-0.00062,11.6713,1.28211,,0.0,-0.00142,-0.00453,22.76754,33.83776,14552.4,1.33968,1.32967,7.9323e-08,12.05689,0.525,0.00022094,95657.8,95657.8,95610.7,5.6234e+16,0.297797
0.0,2.0,18.13319,14552.6,-857.869,-422.195,-27142.802,1e-05,9e-05,18.13493,1.9902,,0.0,-0.00141,-0.00457,22.76757,40.30094,14552.6,2.02976,2.02374,-2.05732e-05,18.51222,0.78,0.000218518,94609.1,94609.1,94555.1,8.35476e+16,0.2631
0.0,2.0,24.54217,14552.8,-857.868,-422.196,-27142.801,-0.00019,-0.00039,24.54435,2.65544,,0.0,-0.00149,-0.00459,22.76752,46.70992,14552.9,2.69541,2.52628,0.0285254,24.92094,1.035,0.000216363,93675.9,93675.9,93827.7,1.10861e+17,0.232223
0.0,2.0,30.92389,14553.1,-857.869,-422.196,-27142.801,-0.00011,-0.00057,30.95487,47.42038,,0.0,-0.00146,-0.00455,22.76749,53.09163,14553.1,51.20398,51.2594,0.00736892,31.33225,1.29,0.000215752,93411.4,93411.4,93257.8,1.38175e+17,0.223471
0.0,2.0,37.30109,14553.4,-857.869,-422.194,-27142.801,-0.00014,-0.00022,37.37827,119.209,,0.0,-0.0014,-0.00455,22.76749,59.46884,14553.4,123.737,123.534,0.00253418,37.75593,1.545,0.00021392,92618.5,92618.5,92795.8,1.65489e+17,0.197238
0.0,2.0,43.66627,14553.6,-857.87,-422.195,-27142.802,-0.0001,-0.00046,43.79433,198.273,,0.0,-0.00149,-0.00457,22.76768,65.83402,14553.6,203.187,203.55,0.00409043,44.17176,1.8,0.000213834,92580.9,92580.9,92412.8,1.92802e+17,0.195995
0.0,3.0,49.64847,14553.9,-857.869,-422.196,-27142.801,6e-05,0.00013,49.81958,265.1719,,0.0,-0.00148,-0.00463,22.76757,71.81622,,,,,,2.055,0.000212436,91975.7,91975.7,92088.8,2.20116e+17,0.175972
0.0,3.0,50.08648,14554.1,-857.868,-422.195,-27142.8,0.00014,6e-05,50.2346,229.46,,0.0,-0.00143,-0.00453,22.76768,72.25422,,,,,,2.31,0.000212282,91909.1,91909.1,91809.1,2.47429e+17,0.173767
0.0,3.0,50.03701,14554.4,-857.869,-422.196,-27142.8,-0.00015,0.0002,50.18198,224.562,,0.0,-0.0015,-0.00451,22.76767,72.20475,,,,,,2.565,0.000211348,91504.7,91504.7,91562.9,2.74743e+17,0.160387
0.0,3.0,50.02156,14554.6,-857.869,-422.196,-27142.801,0.00015,8e-05,50.16468,221.669,,0.0,-0.00147,-0.00454,22.76776,72.18931,,,,,,2.82,0.000210928,91322.8,91322.8,91342.7,3.02057e+17,0.154368
0.0,3.0,50.01576,14554.9,-857.87,-422.195,-27142.802,-0.00018,-0.00029,50.1579,220.148,,0.0,-0.00146,-0.00455,22.76763,72.18351,,,,,,3.075,0.000210757,91249.1,91249.1,91142.7,3.2937e+17,0.151929
0.0,3.0,50.01287,14555.1,-857.869,-422.196,-27142.802,0.00027,0.00033,50.1542,218.896,,0.0,-0.00144,-0.0045,22.76765,72.18061,,,,,,3.33,0.000209766,90819.9,90819.9,90958.9,3.56684e+17,0.13773
0.0,3.0,50.01011,14555.4,-857.868,-422.195,-27142.8,-3e-05,8e-05,50.15075,217.827,,0.0,-0.00147,-0.0045,22.76775,72.17785,,,,,,3.585,0.000209998,90920.2,90920.2,90788,3.83998e+17,0.141049
0.0,3.0,50.00931,14555.7,-857.869,-422.195,-27142.801,-0.00034,0.00052,50.14951,217.14,,0.0,-0.00145,-0.00453,22.76773,72.17706,,,,,,3.84,0.000208912,90450.1,90450.1,90628,4.11311e+17,0.125493
0.0,3.0,50.00738,14555.9,-857.868,-422.196,-27142.8,-0.00039,0.00025,50.14687,216.043,,0.0,-0.0015,-0.00452,22.76793,72.17512,,,,,,4.095,0.000209259,90600.2,90600.2,90477,4.38625e+17,0.13046
0.0,3.0,50.00738,14556.2,-857.868,-422.195,-27142.8,0.00013,-0.00017,50.14676,215.867,,0.0,-0.00149,-0.0045,22.76786,72.17512,,,,,,4.35,0.000208489,90267,90267,90333.9,4.65939e+17,0.119437
0.0,3.0,50.0057,14556.4,-857.868,-422.196,-27142.8,-5e-05,-0.00042,50.14436,214.75,,0.0,-0.00146,-0.00452,22.76794,72.17345,,,,,,4.605,0.000208313,90190.8,90190.8,90197.7,4.93252e+17,0.116916
0.0,3.0,50.00612,14556.7,-857.87,-422.196,-27142.801,9e-05,0.00013,50.14482,214.811,,0.0,-0.00143,-0.00451,22.76806,72.17386,,,,,,4.86,0.000208042,90073.3,90073.3,90067.7,5.20566e+17,0.113029
0.0,3.0,50.00514,14556.9,-857.869,-422.196,-27142.802,0.0001,0.00016,50.1433,213.96,,0.0,-0.00146,-0.00449,22.76775,72.17289,,,,,,5.115,0.000207595,89880,89880,89943.2,5.47879e+17,0.106632
0.0,3.0,50.00492,14557.2,-857.87,-422.195,-27142.802,-0.00037,0.00019,50.14296,213.777,,0.0,-0.00142,-0.0045,22.76796,72.17267,,,,,,5.37,0.00020764,89899.3,89899.3,89823.9,5.75193e+17,0.10727
0.0,3.0,50.00458,14557.4,-857.868,-422.195,-27142.801,-0.00049,-0.00026,50.14224,213.193,,0.0,-0.00148,-0.00449,22.76809,72.17233,,,,,,5.625,0.000206858,89560.8,89560.8,89709.3,6.02507e+17,0.0960699
0.0,3.0,50.00399,14557.7,-857.868,-422.196,-27142.801,0.00017,0.00021,50.14144,212.873,,0.0,-0.00146,-0.00452,22.76831,72.17173,,,,,,5.88,0.000207235,89724.1,89724.1,89599.2,6.2982e+17,0.101475
0.0,3.0,50.00446,14557.9,-857.868,-422.196,-27142.802,0.00011,-0.00036,50.1418,212.697,,0.0,-0.00142,-0.00447,22.76805,72.1722,,,,,,6.135,0.0002064324,89376.5,89376.5,89493.2,6.57134e+17,0.0899726
0.0,3.0,50.00326,14558.2,-857.869,-422.196,-27142.802,-0.00032,-7e-05,50.14011,211.942,,0.0,-0.00147,-0.00451,22.76814,72.171,,,,,,6.39,0.000206739,89509.4,89509.4,89391.2,6.84448e+17,0.0943691
0.0,3.0,50.00394,14558.5,-857.869,-422.196,-27142.802,-7e-05,-0.00022,50.1409,212.119,,0.0,-0.00145,-0.00459,22.76811,72.17168,,,,,,6.645,0.000206042,89207.4,89207.4,89293.1,7.11761e+17,0.084379
0.0,3.0,50.00283,14558.7,-857.868,-422.196,-27142.802,3e-05,-0.00031,50.13926,211.268,,0.0,-0.00149,-0.00451,22.7681,72.17058,,,,,,6.9,0.000206102,89233.6,89233.6,89198.5,7.39075e+17,0.0852444
0.0,3.0,50.00354,14559,-857.869,-422.195,-27142.801,-4e-05,-0.00013,50.14016,211.581,,0.0,-0.00146,-0.00457,22.76829,72.17128,,,,,,7.155,0.000205904,89147.7,89147.7,89107.4,7.66389e+17,0.0824017
0.0,3.0,50.00267,14559.2,-857.869,-422.196,-27142.801,-5e-05,-0.0,50.13875,210.736,,0.0,-0.00147,-0.00451,22.76854,72.17042,,,,,,7.41,0.000205556,88996.9,88996.9,89019.5,7.93702e+17,0.077413
0.0,3.0,50.00285,14559.5,-857.869,-422.195,-27142.8,0.0001,0.00035,50.139,210.843,,0.0,-0.00147,-0.0045,22.76828,72.1706,,,,,,7.665,0.000205647,89036.4,89036.4,88934.9,8.21016e+17,0.0787216
0.0,3.0,50.00273,14559.7,-857.868,-422.196,-27142.8,-0.00013,-0.00047,50.13861,210.43,,0.0,-0.00141,-0.00459,22.76834,72.17048,,,,,,7.92,0.000204933,88727.1,88727.1,88853.3,8.48329e+17,0.0684879
0.0,3.0,50.00271,14560,-857.869,-422.195,-27142.8,4e-05,0.00015,50.13859,210.42,,0.0,-0.00143,-0.00455,22.76839,72.17046,,,,,,8.175,0.000205416,88936.2,88936.2,88774.7,8.75643e+17,0.0754065
0.0,3.0,50.00267,14560.2,-857.868,-422.195,-27142.802,-0.00017,-0.00057,50.13833,210.077,,0.0,-0.00147,-0.00456,22.76843,72.17042,,,,,,8.43,0.000204612,88588.2,88588.2,88698.9,9.02957e+17,0.0638916
0.0,3.0,50.0022,14560.5,-857.869,-422.195,-27142.8,0.0004,-0.0006,50.13756,209.618,,0.0,-0.00146,-0.00454,22.76831,72.16995,,,,,,8.685,0.000204898,88712,88712,88625.8,9.3027e+17,0.0679874
0.0,3.0,50.00295,14560.8,-857.868,-422.197,-27142.801,0.00016,-0.00012,50.13851,209.9289,,0.0,-0.00139,-0.00455,22.76851,72.1707,,,,,,8.94,0.000204404,88498.2,88498.2,88555.3,9.57584e+17,0.0609152
0.0,3.0,50.00178,14561,-857.869,-422.197,-27142.8,-3e-05,-0.00046,50.13677,209.05,,0.0,-0.00147,-0.00456,22.76835,72.16953,,,,,,9.195,0.000204404,88498.4,88498.4,88487.4,9.84898e+17,0.0609201
0.0,3.0,50.00286,14561.3,-857.869,-422.195,-27142.8,2e-05,0.00023,50.13817,209.548,,0.0,-0.0014,-0.00459,22.76851,72.17061,,,,,,9.45,0.000204199,88409.6,88409.6,88421.9,1.01221e+18,0.0579834
0.0,3.0,50.00201,14561.5,-857.869,-422.195,-27142.8,-0.00033,-1e-05,50.13682,208.771,,0.0,-0.00145,-0.00455,22.76856,72.16975,,,,,,,,,,,,
0.0,3.0,50.00241,14561.8,-857.868,-422.196,-27142.801,-6e-05,0.00014,50.13736,208.983,,0.0,-0.00143,-0.00461,22.7685,72.17016,,,,,,,,,,,,
0.0,3.0,50.00245,14562,-857.869,-422.195,-27142.801,1e-05,-0.00034,50.13721,208.688,,0.0,-0.00145,-0.00457,22.76861,72.17019,,,,,,,,,,,,
0.0,3.0,50.0015,14562.3,-857.869,-422.196,-27142.8,-3e-05,-1e-05,50.13595,208.213,,0.0,-0.00151,-0.00453,22.76872,72.16925,,,,,,,,,,,,
0.0,3.0,50.00259,14562.5,-857.869,-422.195,-27142.8,0.00027,0.00017,50.13729,208.593,,0.0,-0.00147,-0.00453,22.76864,72.17034,,,,,,,,,,,,
0.0,3.0,50.00122,14562.8,-857.869,-422.195,-27142.8,-0.00035,0.0,50.13539,207.768,,0.0,-0.00146,-0.00458,22.76881,72.16896,,,,,,,,,,,,
0.0,3.0,50.00244,14563,-857.869,-422.195,-27142.8,-0.00011,0.0002,50.13699,208.351,,0.0,-0.00144,-0.00458,22.76875,72.17019,,,,,,,,,,,,
0.0,3.0,50.00124,14563.3,-857.869,-422.196,-27142.801,0.00013,0.00016,50.13519,207.436,,0.0,-0.00146,-0.00451,22.76876,72.16898,,,,,,,,,,,,
0.0,3.0,50.00222,14563.6,-857.869,-422.196,-27142.8,-8e-05,2e-05,50.13651,207.951,,0.0,-0.00144,-0.0045,22.76859,72.16997,,,,,,,,,,,,
0.0,3.0,50.00134,14563.8,-857.867,-422.196,-27142.799,-0.0001,-0.00039,50.13519,207.262,,0.0,-0.00147,-0.00457,22.76885,72.16909,,,,,,,,,,,,
0.0,4.0,45.65387,14564.1,-857.869,-422.195,-27142.799,-6e-05,-7e-05,45.70002,71.00135,,0.0,-0.00149,-0.00455,22.76874,67.82161,,,,,,,,,,,,
0.0,4.0,39.01832,14564.3,-857.869,-422.196,-27142.801,0.00037,-0.00011,39.04128,34.95088,,0.0,-0.00147,-0.00455,22.76894,61.18607,,,,,,,,,,,,
0.0,4.0,32.45793,14564.6,-857.869,-422.196,-27142.8,-0.00019,0.00069,32.4675,14.15809,,0.0,-0.00148,-0.00449,22.76899,54.62568,,,,,,,,,,,,
0.0,4.0,25.95859,14564.8,-857.868,-422.196,-27142.799,-1e-05,0.0008,25.95855,-0.78037,,0.0,-0.00143,-0.00452,22.76906,48.12634,,,,,,,,,,,,
0.0,4.0,19.48588,14565.1,-857.869,-422.195,-27142.8,-0.0003,0.00065,19.4854,-1.4737,,0.0,-0.00147,-0.00454,22.76897,41.65363,,,,,,,,,,,,
0.0,4.0,13.0385,14565.3,-857.869,-422.196,-27142.799,-0.00016,0.00063,13.03757,-2.1704,,0.0,-0.0015,-0.00453,22.76901,35.20625,,,,,,,,,,,,
0.0,4.0,6.60654,14565.6,-857.868,-422.196,-27142.8,-0.00013,0.00033,6.60515,-2.8807,,0.0,-0.00148,-0.00454,22.76897,28.77429,,,,,,,,,,,,
0.0,4.0,0.40372,14565.9,-857.869,-422.195,-27142.799,-0.00023,0.00039,0.40191,-3.53832,,0.0,-0.00152,-0.00455,22.76906,22.57147,,,,,,,,,,,,
0.0,4.0,0.23586,14565.9,-857.869,-422.196,-27142.8,-2e-05,0.00026,0.23404,-3.55478,,0.0,-0.00148,-0.00452,22.76913,22.40361,,,,,,,,,,,,